88eca58f6ac98158d5cf86dc64624615be3d9e1d,taskName,raceSet,blackLabels,whiteLabels,taskNumber,taskURL,name,response,serial,latency,pristineLatency,declined,submitLatency,log_serial,trial_id,responseHandle,stimuli,media,data,block3Cond,feedback,d
88eca58f6ac98158d5cf86dc64624615be3d9e1d,mgr,b,"[""Black people""]","[""White people""]",,,,,,,,,,,,,,,,,,
88eca58f6ac98158d5cf86dc64624615be3d9e1d,realstart,,,,1,realstart.jst,,,,,,,,,,,,,,,,
88eca58f6ac98158d5cf86dc64624615be3d9e1d,explicits,,,,2,explicits.js,,,,,,,,,,,,,,,,
88eca58f6ac98158d5cf86dc64624615be3d9e1d,explicits,,,,,,Twhite_0to10,7,0,7271,7271,,8272,,,,,,,,,
88eca58f6ac98158d5cf86dc64624615be3d9e1d,explicits,,,,,,Tblack_0to10,7,1,2388,2388,,3216,,,,,,,,,
88eca58f6ac98158d5cf86dc64624615be3d9e1d,explicits,,,,,,attributes7,4,2,5711,5711,,6941,,,,,,,,,
88eca58f6ac98158d5cf86dc64624615be3d9e1d,demographics,,,,3,demographics.js,,,,,,,,,,,,,,,,
88eca58f6ac98158d5cf86dc64624615be3d9e1d,demographics,,,,,,birthSex,1,3,5467,5467,,12494,,,,,,,,,
88eca58f6ac98158d5cf86dc64624615be3d9e1d,demographics,,,,,,genderIdentity,[1],4,9958,8528,,12490,,,,,,,,,
88eca58f6ac98158d5cf86dc64624615be3d9e1d,demographics,,,,,,birthmonth,1,5,1824,1824,,2504,,,,,,,,,
88eca58f6ac98158d5cf86dc64624615be3d9e1d,demographics,,,,,,birthyear,17,6,5248,5248,,5662,,,,,,,,,
88eca58f6ac98158d5cf86dc64624615be3d9e1d,demographics,,,,,,raceomb002,6,7,5168.000000000007,3427,,8266,,,,,,,,,
88eca58f6ac98158d5cf86dc64624615be3d9e1d,demographics,,,,,,ethnicityomb,3,8,7680,7680,,8264,,,,,,,,,
88eca58f6ac98158d5cf86dc64624615be3d9e1d,demographics,,,,,,num002,1,9,3488,3488,,4271,,,,,,,,,
88eca58f6ac98158d5cf86dc64624615be3d9e1d,demographics,,,,,,politicalid7,6,10,9366,9366,,10166,,,,,,,,,
88eca58f6ac98158d5cf86dc64624615be3d9e1d,demographics,,,,,,religion2014,6,11,1330,1330,,2168,,,,,,,,,
88eca58f6ac98158d5cf86dc64624615be3d9e1d,demographics,,,,,,religionid,1,12,792.0000000000146,792.0000000000146,,1490,,,,,,,,,
88eca58f6ac98158d5cf86dc64624615be3d9e1d,demographics,,,,,,countrycit002,225,13,5634,5634,,6264,,,,,,,,,
88eca58f6ac98158d5cf86dc64624615be3d9e1d,demographics,,,,,,countryres002,225,14,4862,4862,,5738,,,,,,,,,
88eca58f6ac98158d5cf86dc64624615be3d9e1d,demographics,,,,,,postcodenow,,15,,,,3393,,,,,,,,,
88eca58f6ac98158d5cf86dc64624615be3d9e1d,demographics,,,,,,postcodelong,,16,,,,3388,,,,,,,,,
88eca58f6ac98158d5cf86dc64624615be3d9e1d,demographics,,,,,,edu,11,17,11206,11206,,11895.000000000015,,,,,,,,,
88eca58f6ac98158d5cf86dc64624615be3d9e1d,demographics,,,,,,occuSelf,11-,18,6054,6054,,8932,,,,,,,,,
88eca58f6ac98158d5cf86dc64624615be3d9e1d,demographics,,,,,,occuSelfDetail,1,19,2023,2023,,2873,,,,,,,,,
88eca58f6ac98158d5cf86dc64624615be3d9e1d,raceiat_instructions,,,,4,raceiat_instructions.jst,,,,,,,,,,,,,,,,
88eca58f6ac98158d5cf86dc64624615be3d9e1d,raceiat,,,,5,raceiat.js,,,,,,,,,,,,,,,,
88eca58f6ac98158d5cf86dc64624615be3d9e1d,raceiat,,,,,,instructions,,,3995,,,,0,0,space,"[""dummy""]","["" ""]","{""blockStart"":true,""condition"":""instructions"",""score"":0,""block"":0}",,,
88eca58f6ac98158d5cf86dc64624615be3d9e1d,raceiat,,,,,,cat1right,,,6024,,,,1,1,right,"[[""Black people""]]","[""bm2_nc.jpg""]","{""score"":1,""parcel"":""first"",""corResp"":""right"",""condition"":""White people,Black people"",""block"":1}",,,
88eca58f6ac98158d5cf86dc64624615be3d9e1d,raceiat,,,,,,cat1right,,,681,,,,2,2,right,"[[""Black people""]]","[""bf2_nc.jpg""]","{""score"":0,""parcel"":""first"",""corResp"":""right"",""condition"":""White people,Black people"",""block"":1}",,,
88eca58f6ac98158d5cf86dc64624615be3d9e1d,raceiat,,,,,,cat2left,,,876,,,,3,3,left,"[[""White people""]]","[""wf2_nc.jpg""]","{""score"":0,""parcel"":""first"",""corResp"":""left"",""condition"":""White people,Black people"",""block"":1}",,,
88eca58f6ac98158d5cf86dc64624615be3d9e1d,raceiat,,,,,,cat2left,,,1046,,,,4,4,left,"[[""White people""]]","[""wf1_nc.jpg""]","{""score"":0,""parcel"":""first"",""corResp"":""left"",""condition"":""White people,Black people"",""block"":1}",,,
88eca58f6ac98158d5cf86dc64624615be3d9e1d,raceiat,,,,,,cat2left,,,576,,,,5,5,left,"[[""White people""]]","[""wm2_nc.jpg""]","{""score"":0,""parcel"":""first"",""corResp"":""left"",""condition"":""White people,Black people"",""block"":1}",,,
88eca58f6ac98158d5cf86dc64624615be3d9e1d,raceiat,,,,,,cat2left,,,431,,,,6,6,left,"[[""White people""]]","[""wm1_nc.jpg""]","{""score"":0,""parcel"":""first"",""corResp"":""left"",""condition"":""White people,Black people"",""block"":1}",,,
88eca58f6ac98158d5cf86dc64624615be3d9e1d,raceiat,,,,,,cat1right,,,1106,,,,7,7,right,"[[""Black people""]]","[""bf1_nc.jpg""]","{""score"":1,""parcel"":""first"",""corResp"":""right"",""condition"":""White people,Black people"",""block"":1}",,,
88eca58f6ac98158d5cf86dc64624615be3d9e1d,raceiat,,,,,,cat1right,,,644,,,,8,8,right,"[[""Black people""]]","[""bm3_nc.jpg""]","{""score"":0,""parcel"":""first"",""corResp"":""right"",""condition"":""White people,Black people"",""block"":1}",,,
88eca58f6ac98158d5cf86dc64624615be3d9e1d,raceiat,,,,,,cat1right,,,766,,,,9,9,right,"[[""Black people""]]","[""bf3_nc.jpg""]","{""score"":0,""parcel"":""first"",""corResp"":""right"",""condition"":""White people,Black people"",""block"":1}",,,
88eca58f6ac98158d5cf86dc64624615be3d9e1d,raceiat,,,,,,cat1right,,,493,,,,10,10,right,"[[""Black people""]]","[""bm1_nc.jpg""]","{""score"":0,""parcel"":""first"",""corResp"":""right"",""condition"":""White people,Black people"",""block"":1}",,,
88eca58f6ac98158d5cf86dc64624615be3d9e1d,raceiat,,,,,,cat2left,,,615,,,,11,11,left,"[[""White people""]]","[""wm3_nc.jpg""]","{""score"":0,""parcel"":""first"",""corResp"":""left"",""condition"":""White people,Black people"",""block"":1}",,,
88eca58f6ac98158d5cf86dc64624615be3d9e1d,raceiat,,,,,,cat2left,,,498,,,,12,12,left,"[[""White people""]]","[""wf3_nc.jpg""]","{""score"":0,""parcel"":""first"",""corResp"":""left"",""condition"":""White people,Black people"",""block"":1}",,,
88eca58f6ac98158d5cf86dc64624615be3d9e1d,raceiat,,,,,,cat2left,,,412,,,,13,13,left,"[[""White people""]]","[""wm3_nc.jpg""]","{""score"":0,""parcel"":""first"",""corResp"":""left"",""condition"":""White people,Black people"",""block"":1}",,,
88eca58f6ac98158d5cf86dc64624615be3d9e1d,raceiat,,,,,,cat1right,,,3208,,,,14,14,right,"[[""Black people""]]","[""bm1_nc.jpg""]","{""score"":1,""parcel"":""first"",""corResp"":""right"",""condition"":""White people,Black people"",""block"":1}",,,
88eca58f6ac98158d5cf86dc64624615be3d9e1d,raceiat,,,,,,cat2left,,,707,,,,15,15,left,"[[""White people""]]","[""wf2_nc.jpg""]","{""score"":0,""parcel"":""first"",""corResp"":""left"",""condition"":""White people,Black people"",""block"":1}",,,
88eca58f6ac98158d5cf86dc64624615be3d9e1d,raceiat,,,,,,cat1right,,,509,,,,16,16,right,"[[""Black people""]]","[""bm2_nc.jpg""]","{""score"":0,""parcel"":""first"",""corResp"":""right"",""condition"":""White people,Black people"",""block"":1}",,,
88eca58f6ac98158d5cf86dc64624615be3d9e1d,raceiat,,,,,,cat2left,,,686,,,,17,17,left,"[[""White people""]]","[""wf3_nc.jpg""]","{""score"":0,""parcel"":""first"",""corResp"":""left"",""condition"":""White people,Black people"",""block"":1}",,,
88eca58f6ac98158d5cf86dc64624615be3d9e1d,raceiat,,,,,,cat2left,,,481,,,,18,18,left,"[[""White people""]]","[""wf1_nc.jpg""]","{""score"":0,""parcel"":""first"",""corResp"":""left"",""condition"":""White people,Black people"",""block"":1}",,,
88eca58f6ac98158d5cf86dc64624615be3d9e1d,raceiat,,,,,,cat1right,,,569,,,,19,19,right,"[[""Black people""]]","[""bm3_nc.jpg""]","{""score"":0,""parcel"":""first"",""corResp"":""right"",""condition"":""White people,Black people"",""block"":1}",,,
88eca58f6ac98158d5cf86dc64624615be3d9e1d,raceiat,,,,,,cat1right,,,599,,,,20,20,right,"[[""Black people""]]","[""bf3_nc.jpg""]","{""score"":0,""parcel"":""first"",""corResp"":""right"",""condition"":""White people,Black people"",""block"":1}",,,
88eca58f6ac98158d5cf86dc64624615be3d9e1d,raceiat,,,,,,instructions,,,7300,,,,21,21,space,"[""dummy""]","["" ""]","{""blockStart"":true,""condition"":""instructions"",""score"":0,""block"":0}",,,
88eca58f6ac98158d5cf86dc64624615be3d9e1d,raceiat,,,,,,att2right,,,2658,,,,22,22,right,"[""Good""]","[""Friendship""]","{""score"":0,""parcel"":""first"",""corResp"":""right"",""condition"":""Bad,Good"",""block"":2}",,,
88eca58f6ac98158d5cf86dc64624615be3d9e1d,raceiat,,,,,,att1left,,,749,,,,23,23,left,"[""Bad""]","[""Ugly""]","{""score"":0,""parcel"":""first"",""corResp"":""left"",""condition"":""Bad,Good"",""block"":2}",,,
88eca58f6ac98158d5cf86dc64624615be3d9e1d,raceiat,,,,,,att2right,,,643,,,,24,24,right,"[""Good""]","[""Fabulous""]","{""score"":0,""parcel"":""first"",""corResp"":""right"",""condition"":""Bad,Good"",""block"":2}",,,
88eca58f6ac98158d5cf86dc64624615be3d9e1d,raceiat,,,,,,att1left,,,880,,,,25,25,left,"[""Bad""]","[""Scorn""]","{""score"":0,""parcel"":""first"",""corResp"":""left"",""condition"":""Bad,Good"",""block"":2}",,,
88eca58f6ac98158d5cf86dc64624615be3d9e1d,raceiat,,,,,,att1left,,,713,,,,26,26,left,"[""Bad""]","[""Abuse""]","{""score"":0,""parcel"":""first"",""corResp"":""left"",""condition"":""Bad,Good"",""block"":2}",,,
88eca58f6ac98158d5cf86dc64624615be3d9e1d,raceiat,,,,,,att2right,,,640,,,,27,27,right,"[""Good""]","[""Fantastic""]","{""score"":0,""parcel"":""first"",""corResp"":""right"",""condition"":""Bad,Good"",""block"":2}",,,
88eca58f6ac98158d5cf86dc64624615be3d9e1d,raceiat,,,,,,att1left,,,637,,,,28,28,left,"[""Bad""]","[""Nasty""]","{""score"":0,""parcel"":""first"",""corResp"":""left"",""condition"":""Bad,Good"",""block"":2}",,,
88eca58f6ac98158d5cf86dc64624615be3d9e1d,raceiat,,,,,,att2right,,,777,,,,29,29,right,"[""Good""]","[""Terrific""]","{""score"":0,""parcel"":""first"",""corResp"":""right"",""condition"":""Bad,Good"",""block"":2}",,,
88eca58f6ac98158d5cf86dc64624615be3d9e1d,raceiat,,,,,,att2right,,,711,,,,30,30,right,"[""Good""]","[""Delightful""]","{""score"":0,""parcel"":""first"",""corResp"":""right"",""condition"":""Bad,Good"",""block"":2}",,,
88eca58f6ac98158d5cf86dc64624615be3d9e1d,raceiat,,,,,,att2right,,,558,,,,31,31,right,"[""Good""]","[""Joyous""]","{""score"":0,""parcel"":""first"",""corResp"":""right"",""condition"":""Bad,Good"",""block"":2}",,,
88eca58f6ac98158d5cf86dc64624615be3d9e1d,raceiat,,,,,,att1left,,,655,,,,32,32,left,"[""Bad""]","[""Poison""]","{""score"":0,""parcel"":""first"",""corResp"":""left"",""condition"":""Bad,Good"",""block"":2}",,,
88eca58f6ac98158d5cf86dc64624615be3d9e1d,raceiat,,,,,,att1left,,,553,,,,33,33,left,"[""Bad""]","[""Pain""]","{""score"":0,""parcel"":""first"",""corResp"":""left"",""condition"":""Bad,Good"",""block"":2}",,,
88eca58f6ac98158d5cf86dc64624615be3d9e1d,raceiat,,,,,,att1left,,,561,,,,34,34,left,"[""Bad""]","[""Evil""]","{""score"":0,""parcel"":""first"",""corResp"":""left"",""condition"":""Bad,Good"",""block"":2}",,,
88eca58f6ac98158d5cf86dc64624615be3d9e1d,raceiat,,,,,,att2right,,,624,,,,35,35,right,"[""Good""]","[""Celebrate""]","{""score"":0,""parcel"":""first"",""corResp"":""right"",""condition"":""Bad,Good"",""block"":2}",,,
88eca58f6ac98158d5cf86dc64624615be3d9e1d,raceiat,,,,,,att1left,,,596,,,,36,36,left,"[""Bad""]","[""Angry""]","{""score"":0,""parcel"":""first"",""corResp"":""left"",""condition"":""Bad,Good"",""block"":2}",,,
88eca58f6ac98158d5cf86dc64624615be3d9e1d,raceiat,,,,,,att2right,,,704,,,,37,37,right,"[""Good""]","[""Cheerful""]","{""score"":0,""parcel"":""first"",""corResp"":""right"",""condition"":""Bad,Good"",""block"":2}",,,
88eca58f6ac98158d5cf86dc64624615be3d9e1d,raceiat,,,,,,att1left,,,595,,,,38,38,left,"[""Bad""]","[""Abuse""]","{""score"":0,""parcel"":""first"",""corResp"":""left"",""condition"":""Bad,Good"",""block"":2}",,,
88eca58f6ac98158d5cf86dc64624615be3d9e1d,raceiat,,,,,,att2right,,,616,,,,39,39,right,"[""Good""]","[""Joyous""]","{""score"":0,""parcel"":""first"",""corResp"":""right"",""condition"":""Bad,Good"",""block"":2}",,,
88eca58f6ac98158d5cf86dc64624615be3d9e1d,raceiat,,,,,,att2right,,,620,,,,40,40,right,"[""Good""]","[""Delightful""]","{""score"":0,""parcel"":""first"",""corResp"":""right"",""condition"":""Bad,Good"",""block"":2}",,,
88eca58f6ac98158d5cf86dc64624615be3d9e1d,raceiat,,,,,,att1left,,,640,,,,41,41,left,"[""Bad""]","[""Nasty""]","{""score"":0,""parcel"":""first"",""corResp"":""left"",""condition"":""Bad,Good"",""block"":2}",,,
88eca58f6ac98158d5cf86dc64624615be3d9e1d,raceiat,,,,,,instructions,,,3685,,,,42,42,space,"[""dummy""]","["" ""]","{""blockStart"":true,""condition"":""instructions"",""score"":0,""block"":0}",,,
88eca58f6ac98158d5cf86dc64624615be3d9e1d,raceiat,,,,,,cat1right,,,5035,,,,43,43,right,"[[""Black people""]]","[""bf2_nc.jpg""]","{""score"":0,""parcel"":""first"",""corResp"":""right"",""condition"":""White people/Bad,Black people/Good"",""block"":3}",,,
88eca58f6ac98158d5cf86dc64624615be3d9e1d,raceiat,,,,,,att2right,,,1414,,,,44,44,right,"[""Good""]","[""Cheerful""]","{""score"":0,""parcel"":""first"",""corResp"":""right"",""condition"":""White people/Bad,Black people/Good"",""block"":3}",,,
88eca58f6ac98158d5cf86dc64624615be3d9e1d,raceiat,,,,,,cat2left,,,1658,,,,45,45,left,"[[""White people""]]","[""wm1_nc.jpg""]","{""score"":1,""parcel"":""first"",""corResp"":""left"",""condition"":""White people/Bad,Black people/Good"",""block"":3}",,,
88eca58f6ac98158d5cf86dc64624615be3d9e1d,raceiat,,,,,,att1left,,,1228,,,,46,46,left,"[""Bad""]","[""Ugly""]","{""score"":0,""parcel"":""first"",""corResp"":""left"",""condition"":""White people/Bad,Black people/Good"",""block"":3}",,,
88eca58f6ac98158d5cf86dc64624615be3d9e1d,raceiat,,,,,,cat1right,,,885,,,,47,47,right,"[[""Black people""]]","[""bf1_nc.jpg""]","{""score"":0,""parcel"":""first"",""corResp"":""right"",""condition"":""White people/Bad,Black people/Good"",""block"":3}",,,
88eca58f6ac98158d5cf86dc64624615be3d9e1d,raceiat,,,,,,att2right,,,1096,,,,48,48,right,"[""Good""]","[""Celebrate""]","{""score"":0,""parcel"":""first"",""corResp"":""right"",""condition"":""White people/Bad,Black people/Good"",""block"":3}",,,
88eca58f6ac98158d5cf86dc64624615be3d9e1d,raceiat,,,,,,cat2left,,,2568,,,,49,49,left,"[[""White people""]]","[""wm2_nc.jpg""]","{""score"":1,""parcel"":""first"",""corResp"":""left"",""condition"":""White people/Bad,Black people/Good"",""block"":3}",,,
88eca58f6ac98158d5cf86dc64624615be3d9e1d,raceiat,,,,,,att1left,,,1270,,,,50,50,left,"[""Bad""]","[""Angry""]","{""score"":0,""parcel"":""first"",""corResp"":""left"",""condition"":""White people/Bad,Black people/Good"",""block"":3}",,,
88eca58f6ac98158d5cf86dc64624615be3d9e1d,raceiat,,,,,,cat1right,,,815,,,,51,51,right,"[[""Black people""]]","[""bf3_nc.jpg""]","{""score"":0,""parcel"":""first"",""corResp"":""right"",""condition"":""White people/Bad,Black people/Good"",""block"":3}",,,
88eca58f6ac98158d5cf86dc64624615be3d9e1d,raceiat,,,,,,att1left,,,1524,,,,52,52,left,"[""Bad""]","[""Scorn""]","{""score"":0,""parcel"":""first"",""corResp"":""left"",""condition"":""White people/Bad,Black people/Good"",""block"":3}",,,
88eca58f6ac98158d5cf86dc64624615be3d9e1d,raceiat,,,,,,cat2left,,,1100,,,,53,53,left,"[[""White people""]]","[""wm1_nc.jpg""]","{""score"":0,""parcel"":""first"",""corResp"":""left"",""condition"":""White people/Bad,Black people/Good"",""block"":3}",,,
88eca58f6ac98158d5cf86dc64624615be3d9e1d,raceiat,,,,,,att2right,,,1054,,,,54,54,right,"[""Good""]","[""Fabulous""]","{""score"":0,""parcel"":""first"",""corResp"":""right"",""condition"":""White people/Bad,Black people/Good"",""block"":3}",,,
88eca58f6ac98158d5cf86dc64624615be3d9e1d,raceiat,,,,,,cat1right,,,767,,,,55,55,right,"[[""Black people""]]","[""bm2_nc.jpg""]","{""score"":0,""parcel"":""first"",""corResp"":""right"",""condition"":""White people/Bad,Black people/Good"",""block"":3}",,,
88eca58f6ac98158d5cf86dc64624615be3d9e1d,raceiat,,,,,,att2right,,,1965,,,,56,56,right,"[""Good""]","[""Friendship""]","{""score"":0,""parcel"":""first"",""corResp"":""right"",""condition"":""White people/Bad,Black people/Good"",""block"":3}",,,
88eca58f6ac98158d5cf86dc64624615be3d9e1d,raceiat,,,,,,cat2left,,,3442,,,,57,57,left,"[[""White people""]]","[""wm3_nc.jpg""]","{""score"":1,""parcel"":""first"",""corResp"":""left"",""condition"":""White people/Bad,Black people/Good"",""block"":3}",,,
88eca58f6ac98158d5cf86dc64624615be3d9e1d,raceiat,,,,,,att1left,,,741,,,,58,58,left,"[""Bad""]","[""Evil""]","{""score"":0,""parcel"":""first"",""corResp"":""left"",""condition"":""White people/Bad,Black people/Good"",""block"":3}",,,
88eca58f6ac98158d5cf86dc64624615be3d9e1d,raceiat,,,,,,cat1right,,,741,,,,59,59,right,"[[""Black people""]]","[""bm1_nc.jpg""]","{""score"":0,""parcel"":""first"",""corResp"":""right"",""condition"":""White people/Bad,Black people/Good"",""block"":3}",,,
88eca58f6ac98158d5cf86dc64624615be3d9e1d,raceiat,,,,,,att2right,,,1053,,,,60,60,right,"[""Good""]","[""Fantastic""]","{""score"":0,""parcel"":""first"",""corResp"":""right"",""condition"":""White people/Bad,Black people/Good"",""block"":3}",,,
88eca58f6ac98158d5cf86dc64624615be3d9e1d,raceiat,,,,,,cat2left,,,1494,,,,61,61,left,"[[""White people""]]","[""wf3_nc.jpg""]","{""score"":1,""parcel"":""first"",""corResp"":""left"",""condition"":""White people/Bad,Black people/Good"",""block"":3}",,,
88eca58f6ac98158d5cf86dc64624615be3d9e1d,raceiat,,,,,,att1left,,,887,,,,62,62,left,"[""Bad""]","[""Pain""]","{""score"":0,""parcel"":""first"",""corResp"":""left"",""condition"":""White people/Bad,Black people/Good"",""block"":3}",,,
88eca58f6ac98158d5cf86dc64624615be3d9e1d,raceiat,,,,,,instructions,,,1953,,,,63,63,space,"[""dummy""]","["" ""]","{""blockStart"":true,""condition"":""instructions"",""score"":0,""block"":0}",,,
88eca58f6ac98158d5cf86dc64624615be3d9e1d,raceiat,,,,,,cat2left,,,2677,,,,64,64,left,"[[""White people""]]","[""wf1_nc.jpg""]","{""score"":0,""parcel"":""first"",""corResp"":""left"",""condition"":""White people/Bad,Black people/Good"",""block"":4}",,,
88eca58f6ac98158d5cf86dc64624615be3d9e1d,raceiat,,,,,,att1left,,,1662,,,,65,65,left,"[""Bad""]","[""Poison""]","{""score"":0,""parcel"":""first"",""corResp"":""left"",""condition"":""White people/Bad,Black people/Good"",""block"":4}",,,
88eca58f6ac98158d5cf86dc64624615be3d9e1d,raceiat,,,,,,cat1right,,,840,,,,66,66,right,"[[""Black people""]]","[""bf1_nc.jpg""]","{""score"":0,""parcel"":""first"",""corResp"":""right"",""condition"":""White people/Bad,Black people/Good"",""block"":4}",,,
88eca58f6ac98158d5cf86dc64624615be3d9e1d,raceiat,,,,,,att2right,,,996,,,,67,67,right,"[""Good""]","[""Terrific""]","{""score"":0,""parcel"":""first"",""corResp"":""right"",""condition"":""White people/Bad,Black people/Good"",""block"":4}",,,
88eca58f6ac98158d5cf86dc64624615be3d9e1d,raceiat,,,,,,cat1right,,,704,,,,68,68,right,"[[""Black people""]]","[""bm3_nc.jpg""]","{""score"":0,""parcel"":""first"",""corResp"":""right"",""condition"":""White people/Bad,Black people/Good"",""block"":4}",,,
88eca58f6ac98158d5cf86dc64624615be3d9e1d,raceiat,,,,,,att2right,,,569,,,,69,69,right,"[""Good""]","[""Fabulous""]","{""score"":0,""parcel"":""first"",""corResp"":""right"",""condition"":""White people/Bad,Black people/Good"",""block"":4}",,,
88eca58f6ac98158d5cf86dc64624615be3d9e1d,raceiat,,,,,,cat2left,,,759,,,,70,70,left,"[[""White people""]]","[""wf2_nc.jpg""]","{""score"":0,""parcel"":""first"",""corResp"":""left"",""condition"":""White people/Bad,Black people/Good"",""block"":4}",,,
88eca58f6ac98158d5cf86dc64624615be3d9e1d,raceiat,,,,,,att1left,,,966,,,,71,71,left,"[""Bad""]","[""Evil""]","{""score"":0,""parcel"":""first"",""corResp"":""left"",""condition"":""White people/Bad,Black people/Good"",""block"":4}",,,
88eca58f6ac98158d5cf86dc64624615be3d9e1d,raceiat,,,,,,cat1right,,,684,,,,72,72,right,"[[""Black people""]]","[""bf2_nc.jpg""]","{""score"":0,""parcel"":""first"",""corResp"":""right"",""condition"":""White people/Bad,Black people/Good"",""block"":4}",,,
88eca58f6ac98158d5cf86dc64624615be3d9e1d,raceiat,,,,,,att1left,,,6613,,,,73,73,left,"[""Bad""]","[""Scorn""]","{""score"":1,""parcel"":""first"",""corResp"":""left"",""condition"":""White people/Bad,Black people/Good"",""block"":4}",,,
88eca58f6ac98158d5cf86dc64624615be3d9e1d,raceiat,,,,,,cat2left,,,2496,,,,74,74,left,"[[""White people""]]","[""wm2_nc.jpg""]","{""score"":0,""parcel"":""first"",""corResp"":""left"",""condition"":""White people/Bad,Black people/Good"",""block"":4}",,,
88eca58f6ac98158d5cf86dc64624615be3d9e1d,raceiat,,,,,,att2right,,,1048,,,,75,75,right,"[""Good""]","[""Joyous""]","{""score"":0,""parcel"":""first"",""corResp"":""right"",""condition"":""White people/Bad,Black people/Good"",""block"":4}",,,
88eca58f6ac98158d5cf86dc64624615be3d9e1d,raceiat,,,,,,cat1right,,,635,,,,76,76,right,"[[""Black people""]]","[""bf1_nc.jpg""]","{""score"":0,""parcel"":""first"",""corResp"":""right"",""condition"":""White people/Bad,Black people/Good"",""block"":4}",,,
88eca58f6ac98158d5cf86dc64624615be3d9e1d,raceiat,,,,,,att2right,,,742,,,,77,77,right,"[""Good""]","[""Delightful""]","{""score"":0,""parcel"":""first"",""corResp"":""right"",""condition"":""White people/Bad,Black people/Good"",""block"":4}",,,
88eca58f6ac98158d5cf86dc64624615be3d9e1d,raceiat,,,,,,cat2left,,,758,,,,78,78,left,"[[""White people""]]","[""wf3_nc.jpg""]","{""score"":0,""parcel"":""first"",""corResp"":""left"",""condition"":""White people/Bad,Black people/Good"",""block"":4}",,,
88eca58f6ac98158d5cf86dc64624615be3d9e1d,raceiat,,,,,,att1left,,,1347,,,,79,79,left,"[""Bad""]","[""Abuse""]","{""score"":0,""parcel"":""first"",""corResp"":""left"",""condition"":""White people/Bad,Black people/Good"",""block"":4}",,,
88eca58f6ac98158d5cf86dc64624615be3d9e1d,raceiat,,,,,,cat2left,,,619,,,,80,80,left,"[[""White people""]]","[""wm1_nc.jpg""]","{""score"":0,""parcel"":""first"",""corResp"":""left"",""condition"":""White people/Bad,Black people/Good"",""block"":4}",,,
88eca58f6ac98158d5cf86dc64624615be3d9e1d,raceiat,,,,,,att2right,,,711,,,,81,81,right,"[""Good""]","[""Fantastic""]","{""score"":0,""parcel"":""first"",""corResp"":""right"",""condition"":""White people/Bad,Black people/Good"",""block"":4}",,,
88eca58f6ac98158d5cf86dc64624615be3d9e1d,raceiat,,,,,,cat1right,,,1048,,,,82,82,right,"[[""Black people""]]","[""bf3_nc.jpg""]","{""score"":0,""parcel"":""first"",""corResp"":""right"",""condition"":""White people/Bad,Black people/Good"",""block"":4}",,,
88eca58f6ac98158d5cf86dc64624615be3d9e1d,raceiat,,,,,,att1left,,,1625,,,,83,83,left,"[""Bad""]","[""Nasty""]","{""score"":0,""parcel"":""first"",""corResp"":""left"",""condition"":""White people/Bad,Black people/Good"",""block"":4}",,,
88eca58f6ac98158d5cf86dc64624615be3d9e1d,raceiat,,,,,,cat2left,,,631,,,,84,84,left,"[[""White people""]]","[""wm3_nc.jpg""]","{""score"":0,""parcel"":""first"",""corResp"":""left"",""condition"":""White people/Bad,Black people/Good"",""block"":4}",,,
88eca58f6ac98158d5cf86dc64624615be3d9e1d,raceiat,,,,,,att2right,,,641,,,,85,85,right,"[""Good""]","[""Terrific""]","{""score"":0,""parcel"":""first"",""corResp"":""right"",""condition"":""White people/Bad,Black people/Good"",""block"":4}",,,
88eca58f6ac98158d5cf86dc64624615be3d9e1d,raceiat,,,,,,cat1right,,,461,,,,86,86,right,"[[""Black people""]]","[""bf2_nc.jpg""]","{""score"":0,""parcel"":""first"",""corResp"":""right"",""condition"":""White people/Bad,Black people/Good"",""block"":4}",,,
88eca58f6ac98158d5cf86dc64624615be3d9e1d,raceiat,,,,,,att1left,,,679,,,,87,87,left,"[""Bad""]","[""Pain""]","{""score"":0,""parcel"":""first"",""corResp"":""left"",""condition"":""White people/Bad,Black people/Good"",""block"":4}",,,
88eca58f6ac98158d5cf86dc64624615be3d9e1d,raceiat,,,,,,cat1right,,,1058,,,,88,88,right,"[[""Black people""]]","[""bm1_nc.jpg""]","{""score"":1,""parcel"":""first"",""corResp"":""right"",""condition"":""White people/Bad,Black people/Good"",""block"":4}",,,
88eca58f6ac98158d5cf86dc64624615be3d9e1d,raceiat,,,,,,att2right,,,1253,,,,89,89,right,"[""Good""]","[""Celebrate""]","{""score"":0,""parcel"":""first"",""corResp"":""right"",""condition"":""White people/Bad,Black people/Good"",""block"":4}",,,
88eca58f6ac98158d5cf86dc64624615be3d9e1d,raceiat,,,,,,cat2left,,,679,,,,90,90,left,"[[""White people""]]","[""wm2_nc.jpg""]","{""score"":0,""parcel"":""first"",""corResp"":""left"",""condition"":""White people/Bad,Black people/Good"",""block"":4}",,,
88eca58f6ac98158d5cf86dc64624615be3d9e1d,raceiat,,,,,,att1left,,,985,,,,91,91,left,"[""Bad""]","[""Ugly""]","{""score"":0,""parcel"":""first"",""corResp"":""left"",""condition"":""White people/Bad,Black people/Good"",""block"":4}",,,
88eca58f6ac98158d5cf86dc64624615be3d9e1d,raceiat,,,,,,cat2left,,,757,,,,92,92,left,"[[""White people""]]","[""wf2_nc.jpg""]","{""score"":0,""parcel"":""first"",""corResp"":""left"",""condition"":""White people/Bad,Black people/Good"",""block"":4}",,,
88eca58f6ac98158d5cf86dc64624615be3d9e1d,raceiat,,,,,,att2right,,,1518,,,,93,93,right,"[""Good""]","[""Cheerful""]","{""score"":1,""parcel"":""first"",""corResp"":""right"",""condition"":""White people/Bad,Black people/Good"",""block"":4}",,,
88eca58f6ac98158d5cf86dc64624615be3d9e1d,raceiat,,,,,,cat1right,,,564,,,,94,94,right,"[[""Black people""]]","[""bm3_nc.jpg""]","{""score"":0,""parcel"":""first"",""corResp"":""right"",""condition"":""White people/Bad,Black people/Good"",""block"":4}",,,
88eca58f6ac98158d5cf86dc64624615be3d9e1d,raceiat,,,,,,att1left,,,2667,,,,95,95,left,"[""Bad""]","[""Angry""]","{""score"":1,""parcel"":""first"",""corResp"":""left"",""condition"":""White people/Bad,Black people/Good"",""block"":4}",,,
88eca58f6ac98158d5cf86dc64624615be3d9e1d,raceiat,,,,,,cat1right,,,813,,,,96,96,right,"[[""Black people""]]","[""bm2_nc.jpg""]","{""score"":0,""parcel"":""first"",""corResp"":""right"",""condition"":""White people/Bad,Black people/Good"",""block"":4}",,,
88eca58f6ac98158d5cf86dc64624615be3d9e1d,raceiat,,,,,,att2right,,,1153,,,,97,97,right,"[""Good""]","[""Friendship""]","{""score"":0,""parcel"":""first"",""corResp"":""right"",""condition"":""White people/Bad,Black people/Good"",""block"":4}",,,
88eca58f6ac98158d5cf86dc64624615be3d9e1d,raceiat,,,,,,cat2left,,,1462,,,,98,98,left,"[[""White people""]]","[""wf1_nc.jpg""]","{""score"":0,""parcel"":""first"",""corResp"":""left"",""condition"":""White people/Bad,Black people/Good"",""block"":4}",,,
88eca58f6ac98158d5cf86dc64624615be3d9e1d,raceiat,,,,,,att1left,,,792,,,,99,99,left,"[""Bad""]","[""Poison""]","{""score"":0,""parcel"":""first"",""corResp"":""left"",""condition"":""White people/Bad,Black people/Good"",""block"":4}",,,
88eca58f6ac98158d5cf86dc64624615be3d9e1d,raceiat,,,,,,cat2left,,,598,,,,100,100,left,"[[""White people""]]","[""wf3_nc.jpg""]","{""score"":0,""parcel"":""first"",""corResp"":""left"",""condition"":""White people/Bad,Black people/Good"",""block"":4}",,,
88eca58f6ac98158d5cf86dc64624615be3d9e1d,raceiat,,,,,,att2right,,,1082,,,,101,101,right,"[""Good""]","[""Friendship""]","{""score"":0,""parcel"":""first"",""corResp"":""right"",""condition"":""White people/Bad,Black people/Good"",""block"":4}",,,
88eca58f6ac98158d5cf86dc64624615be3d9e1d,raceiat,,,,,,cat1right,,,629,,,,102,102,right,"[[""Black people""]]","[""bf2_nc.jpg""]","{""score"":0,""parcel"":""first"",""corResp"":""right"",""condition"":""White people/Bad,Black people/Good"",""block"":4}",,,
88eca58f6ac98158d5cf86dc64624615be3d9e1d,raceiat,,,,,,att1left,,,994,,,,103,103,left,"[""Bad""]","[""Ugly""]","{""score"":0,""parcel"":""first"",""corResp"":""left"",""condition"":""White people/Bad,Black people/Good"",""block"":4}",,,
88eca58f6ac98158d5cf86dc64624615be3d9e1d,raceiat,,,,,,instructions,,,24453,,,,104,104,space,"[""dummy""]","["" ""]","{""blockStart"":true,""condition"":""instructions"",""score"":0,""block"":0}",,,
88eca58f6ac98158d5cf86dc64624615be3d9e1d,raceiat,,,,,,cat2right,,,4025,,,,105,105,right,"[[""White people""]]","[""wm3_nc.jpg""]","{""score"":1,""parcel"":""first"",""corResp"":""right"",""condition"":""Black people,White people"",""block"":5}",,,
88eca58f6ac98158d5cf86dc64624615be3d9e1d,raceiat,,,,,,cat2right,,,638,,,,106,106,right,"[[""White people""]]","[""wm1_nc.jpg""]","{""score"":0,""parcel"":""first"",""corResp"":""right"",""condition"":""Black people,White people"",""block"":5}",,,
88eca58f6ac98158d5cf86dc64624615be3d9e1d,raceiat,,,,,,cat1left,,,657,,,,107,107,left,"[[""Black people""]]","[""bm2_nc.jpg""]","{""score"":0,""parcel"":""first"",""corResp"":""left"",""condition"":""Black people,White people"",""block"":5}",,,
88eca58f6ac98158d5cf86dc64624615be3d9e1d,raceiat,,,,,,cat1left,,,637,,,,108,108,left,"[[""Black people""]]","[""bm3_nc.jpg""]","{""score"":0,""parcel"":""first"",""corResp"":""left"",""condition"":""Black people,White people"",""block"":5}",,,
88eca58f6ac98158d5cf86dc64624615be3d9e1d,raceiat,,,,,,cat2right,,,727,,,,109,109,right,"[[""White people""]]","[""wf1_nc.jpg""]","{""score"":0,""parcel"":""first"",""corResp"":""right"",""condition"":""Black people,White people"",""block"":5}",,,
88eca58f6ac98158d5cf86dc64624615be3d9e1d,raceiat,,,,,,cat2right,,,535,,,,110,110,right,"[[""White people""]]","[""wm2_nc.jpg""]","{""score"":0,""parcel"":""first"",""corResp"":""right"",""condition"":""Black people,White people"",""block"":5}",,,
88eca58f6ac98158d5cf86dc64624615be3d9e1d,raceiat,,,,,,cat1left,,,647,,,,111,111,left,"[[""Black people""]]","[""bf1_nc.jpg""]","{""score"":0,""parcel"":""first"",""corResp"":""left"",""condition"":""Black people,White people"",""block"":5}",,,
88eca58f6ac98158d5cf86dc64624615be3d9e1d,raceiat,,,,,,cat1left,,,586,,,,112,112,left,"[[""Black people""]]","[""bf3_nc.jpg""]","{""score"":0,""parcel"":""first"",""corResp"":""left"",""condition"":""Black people,White people"",""block"":5}",,,
88eca58f6ac98158d5cf86dc64624615be3d9e1d,raceiat,,,,,,cat2right,,,537,,,,113,113,right,"[[""White people""]]","[""wf2_nc.jpg""]","{""score"":0,""parcel"":""first"",""corResp"":""right"",""condition"":""Black people,White people"",""block"":5}",,,
88eca58f6ac98158d5cf86dc64624615be3d9e1d,raceiat,,,,,,cat1left,,,896,,,,114,114,left,"[[""Black people""]]","[""bm1_nc.jpg""]","{""score"":0,""parcel"":""first"",""corResp"":""left"",""condition"":""Black people,White people"",""block"":5}",,,
88eca58f6ac98158d5cf86dc64624615be3d9e1d,raceiat,,,,,,cat2right,,,647,,,,115,115,right,"[[""White people""]]","[""wm1_nc.jpg""]","{""score"":0,""parcel"":""first"",""corResp"":""right"",""condition"":""Black people,White people"",""block"":5}",,,
88eca58f6ac98158d5cf86dc64624615be3d9e1d,raceiat,,,,,,cat1left,,,594,,,,116,116,left,"[[""Black people""]]","[""bf1_nc.jpg""]","{""score"":0,""parcel"":""first"",""corResp"":""left"",""condition"":""Black people,White people"",""block"":5}",,,
88eca58f6ac98158d5cf86dc64624615be3d9e1d,raceiat,,,,,,cat1left,,,672,,,,117,117,left,"[[""Black people""]]","[""bm3_nc.jpg""]","{""score"":0,""parcel"":""first"",""corResp"":""left"",""condition"":""Black people,White people"",""block"":5}",,,
88eca58f6ac98158d5cf86dc64624615be3d9e1d,raceiat,,,,,,cat1left,,,587,,,,118,118,left,"[[""Black people""]]","[""bm2_nc.jpg""]","{""score"":0,""parcel"":""first"",""corResp"":""left"",""condition"":""Black people,White people"",""block"":5}",,,
88eca58f6ac98158d5cf86dc64624615be3d9e1d,raceiat,,,,,,cat2right,,,568,,,,119,119,right,"[[""White people""]]","[""wm2_nc.jpg""]","{""score"":0,""parcel"":""first"",""corResp"":""right"",""condition"":""Black people,White people"",""block"":5}",,,
88eca58f6ac98158d5cf86dc64624615be3d9e1d,raceiat,,,,,,cat2right,,,670,,,,120,120,right,"[[""White people""]]","[""wf1_nc.jpg""]","{""score"":0,""parcel"":""first"",""corResp"":""right"",""condition"":""Black people,White people"",""block"":5}",,,
88eca58f6ac98158d5cf86dc64624615be3d9e1d,raceiat,,,,,,cat2right,,,537,,,,121,121,right,"[[""White people""]]","[""wf2_nc.jpg""]","{""score"":0,""parcel"":""first"",""corResp"":""right"",""condition"":""Black people,White people"",""block"":5}",,,
88eca58f6ac98158d5cf86dc64624615be3d9e1d,raceiat,,,,,,cat2right,,,464,,,,122,122,right,"[[""White people""]]","[""wm3_nc.jpg""]","{""score"":0,""parcel"":""first"",""corResp"":""right"",""condition"":""Black people,White people"",""block"":5}",,,
88eca58f6ac98158d5cf86dc64624615be3d9e1d,raceiat,,,,,,cat1left,,,723,,,,123,123,left,"[[""Black people""]]","[""bf3_nc.jpg""]","{""score"":0,""parcel"":""first"",""corResp"":""left"",""condition"":""Black people,White people"",""block"":5}",,,
88eca58f6ac98158d5cf86dc64624615be3d9e1d,raceiat,,,,,,cat1left,,,1603,,,,124,124,left,"[[""Black people""]]","[""bf2_nc.jpg""]","{""score"":1,""parcel"":""first"",""corResp"":""left"",""condition"":""Black people,White people"",""block"":5}",,,
88eca58f6ac98158d5cf86dc64624615be3d9e1d,raceiat,,,,,,cat1left,,,686,,,,125,125,left,"[[""Black people""]]","[""bm1_nc.jpg""]","{""score"":0,""parcel"":""first"",""corResp"":""left"",""condition"":""Black people,White people"",""block"":5}",,,
88eca58f6ac98158d5cf86dc64624615be3d9e1d,raceiat,,,,,,cat2right,,,562,,,,126,126,right,"[[""White people""]]","[""wf3_nc.jpg""]","{""score"":0,""parcel"":""first"",""corResp"":""right"",""condition"":""Black people,White people"",""block"":5}",,,
88eca58f6ac98158d5cf86dc64624615be3d9e1d,raceiat,,,,,,cat2right,,,1088,,,,127,127,right,"[[""White people""]]","[""wf2_nc.jpg""]","{""score"":0,""parcel"":""first"",""corResp"":""right"",""condition"":""Black people,White people"",""block"":5}",,,
88eca58f6ac98158d5cf86dc64624615be3d9e1d,raceiat,,,,,,cat1left,,,497,,,,128,128,left,"[[""Black people""]]","[""bm3_nc.jpg""]","{""score"":0,""parcel"":""first"",""corResp"":""left"",""condition"":""Black people,White people"",""block"":5}",,,
88eca58f6ac98158d5cf86dc64624615be3d9e1d,raceiat,,,,,,cat1left,,,473,,,,129,129,left,"[[""Black people""]]","[""bf3_nc.jpg""]","{""score"":0,""parcel"":""first"",""corResp"":""left"",""condition"":""Black people,White people"",""block"":5}",,,
88eca58f6ac98158d5cf86dc64624615be3d9e1d,raceiat,,,,,,cat1left,,,452,,,,130,130,left,"[[""Black people""]]","[""bm1_nc.jpg""]","{""score"":0,""parcel"":""first"",""corResp"":""left"",""condition"":""Black people,White people"",""block"":5}",,,
88eca58f6ac98158d5cf86dc64624615be3d9e1d,raceiat,,,,,,cat2right,,,591,,,,131,131,right,"[[""White people""]]","[""wm1_nc.jpg""]","{""score"":0,""parcel"":""first"",""corResp"":""right"",""condition"":""Black people,White people"",""block"":5}",,,
88eca58f6ac98158d5cf86dc64624615be3d9e1d,raceiat,,,,,,cat2right,,,509,,,,132,132,right,"[[""White people""]]","[""wm2_nc.jpg""]","{""score"":0,""parcel"":""first"",""corResp"":""right"",""condition"":""Black people,White people"",""block"":5}",,,
88eca58f6ac98158d5cf86dc64624615be3d9e1d,raceiat,,,,,,instructions,,,2454,,,,133,133,space,"[""dummy""]","["" ""]","{""blockStart"":true,""condition"":""instructions"",""score"":0,""block"":0}",,,
88eca58f6ac98158d5cf86dc64624615be3d9e1d,raceiat,,,,,,cat2right,,,735,,,,134,134,right,"[[""White people""]]","[""wm3_nc.jpg""]","{""score"":0,""parcel"":""first"",""corResp"":""right"",""condition"":""Black people/Bad,White people/Good"",""block"":6}",,,
88eca58f6ac98158d5cf86dc64624615be3d9e1d,raceiat,,,,,,att2right,,,596,,,,135,135,right,"[""Good""]","[""Cheerful""]","{""score"":0,""parcel"":""first"",""corResp"":""right"",""condition"":""Black people/Bad,White people/Good"",""block"":6}",,,
88eca58f6ac98158d5cf86dc64624615be3d9e1d,raceiat,,,,,,cat1left,,,609,,,,136,136,left,"[[""Black people""]]","[""bf2_nc.jpg""]","{""score"":0,""parcel"":""first"",""corResp"":""left"",""condition"":""Black people/Bad,White people/Good"",""block"":6}",,,
88eca58f6ac98158d5cf86dc64624615be3d9e1d,raceiat,,,,,,att1left,,,630,,,,137,137,left,"[""Bad""]","[""Scorn""]","{""score"":0,""parcel"":""first"",""corResp"":""left"",""condition"":""Black people/Bad,White people/Good"",""block"":6}",,,
88eca58f6ac98158d5cf86dc64624615be3d9e1d,raceiat,,,,,,cat2right,,,578,,,,138,138,right,"[[""White people""]]","[""wf3_nc.jpg""]","{""score"":0,""parcel"":""first"",""corResp"":""right"",""condition"":""Black people/Bad,White people/Good"",""block"":6}",,,
88eca58f6ac98158d5cf86dc64624615be3d9e1d,raceiat,,,,,,att1left,,,526,,,,139,139,left,"[""Bad""]","[""Nasty""]","{""score"":0,""parcel"":""first"",""corResp"":""left"",""condition"":""Black people/Bad,White people/Good"",""block"":6}",,,
88eca58f6ac98158d5cf86dc64624615be3d9e1d,raceiat,,,,,,cat1left,,,648,,,,140,140,left,"[[""Black people""]]","[""bm2_nc.jpg""]","{""score"":0,""parcel"":""first"",""corResp"":""left"",""condition"":""Black people/Bad,White people/Good"",""block"":6}",,,
88eca58f6ac98158d5cf86dc64624615be3d9e1d,raceiat,,,,,,att2right,,,675,,,,141,141,right,"[""Good""]","[""Joyous""]","{""score"":0,""parcel"":""first"",""corResp"":""right"",""condition"":""Black people/Bad,White people/Good"",""block"":6}",,,
88eca58f6ac98158d5cf86dc64624615be3d9e1d,raceiat,,,,,,cat2right,,,422,,,,142,142,right,"[[""White people""]]","[""wf1_nc.jpg""]","{""score"":0,""parcel"":""first"",""corResp"":""right"",""condition"":""Black people/Bad,White people/Good"",""block"":6}",,,
88eca58f6ac98158d5cf86dc64624615be3d9e1d,raceiat,,,,,,att1left,,,649,,,,143,143,left,"[""Bad""]","[""Evil""]","{""score"":0,""parcel"":""first"",""corResp"":""left"",""condition"":""Black people/Bad,White people/Good"",""block"":6}",,,
88eca58f6ac98158d5cf86dc64624615be3d9e1d,raceiat,,,,,,cat1left,,,540,,,,144,144,left,"[[""Black people""]]","[""bf1_nc.jpg""]","{""score"":0,""parcel"":""first"",""corResp"":""left"",""condition"":""Black people/Bad,White people/Good"",""block"":6}",,,
88eca58f6ac98158d5cf86dc64624615be3d9e1d,raceiat,,,,,,att2right,,,668,,,,145,145,right,"[""Good""]","[""Fantastic""]","{""score"":0,""parcel"":""first"",""corResp"":""right"",""condition"":""Black people/Bad,White people/Good"",""block"":6}",,,
88eca58f6ac98158d5cf86dc64624615be3d9e1d,raceiat,,,,,,cat2right,,,295,,,,146,146,right,"[[""White people""]]","[""wf1_nc.jpg""]","{""score"":0,""parcel"":""first"",""corResp"":""right"",""condition"":""Black people/Bad,White people/Good"",""block"":6}",,,
88eca58f6ac98158d5cf86dc64624615be3d9e1d,raceiat,,,,,,att2right,,,664,,,,147,147,right,"[""Good""]","[""Celebrate""]","{""score"":0,""parcel"":""first"",""corResp"":""right"",""condition"":""Black people/Bad,White people/Good"",""block"":6}",,,
88eca58f6ac98158d5cf86dc64624615be3d9e1d,raceiat,,,,,,cat1left,,,1107,,,,148,148,left,"[[""Black people""]]","[""bf1_nc.jpg""]","{""score"":0,""parcel"":""first"",""corResp"":""left"",""condition"":""Black people/Bad,White people/Good"",""block"":6}",,,
88eca58f6ac98158d5cf86dc64624615be3d9e1d,raceiat,,,,,,att1left,,,923,,,,149,149,left,"[""Bad""]","[""Pain""]","{""score"":0,""parcel"":""first"",""corResp"":""left"",""condition"":""Black people/Bad,White people/Good"",""block"":6}",,,
88eca58f6ac98158d5cf86dc64624615be3d9e1d,raceiat,,,,,,cat1left,,,547,,,,150,150,left,"[[""Black people""]]","[""bf2_nc.jpg""]","{""score"":0,""parcel"":""first"",""corResp"":""left"",""condition"":""Black people/Bad,White people/Good"",""block"":6}",,,
88eca58f6ac98158d5cf86dc64624615be3d9e1d,raceiat,,,,,,att1left,,,578,,,,151,151,left,"[""Bad""]","[""Angry""]","{""score"":0,""parcel"":""first"",""corResp"":""left"",""condition"":""Black people/Bad,White people/Good"",""block"":6}",,,
88eca58f6ac98158d5cf86dc64624615be3d9e1d,raceiat,,,,,,cat2right,,,560,,,,152,152,right,"[[""White people""]]","[""wf3_nc.jpg""]","{""score"":0,""parcel"":""first"",""corResp"":""right"",""condition"":""Black people/Bad,White people/Good"",""block"":6}",,,
88eca58f6ac98158d5cf86dc64624615be3d9e1d,raceiat,,,,,,att2right,,,550,,,,153,153,right,"[""Good""]","[""Delightful""]","{""score"":0,""parcel"":""first"",""corResp"":""right"",""condition"":""Black people/Bad,White people/Good"",""block"":6}",,,
88eca58f6ac98158d5cf86dc64624615be3d9e1d,raceiat,,,,,,instructions,,,2789,,,,154,154,space,"[""dummy""]","["" ""]","{""blockStart"":true,""condition"":""instructions"",""score"":0,""block"":0}",,,
88eca58f6ac98158d5cf86dc64624615be3d9e1d,raceiat,,,,,,cat2right,,,800,,,,155,155,right,"[[""White people""]]","[""wm2_nc.jpg""]","{""score"":0,""parcel"":""first"",""corResp"":""right"",""condition"":""Black people/Bad,White people/Good"",""block"":7}",,,
88eca58f6ac98158d5cf86dc64624615be3d9e1d,raceiat,,,,,,att2right,,,573,,,,156,156,right,"[""Good""]","[""Terrific""]","{""score"":0,""parcel"":""first"",""corResp"":""right"",""condition"":""Black people/Bad,White people/Good"",""block"":7}",,,
88eca58f6ac98158d5cf86dc64624615be3d9e1d,raceiat,,,,,,cat1left,,,938,,,,157,157,left,"[[""Black people""]]","[""bf3_nc.jpg""]","{""score"":0,""parcel"":""first"",""corResp"":""left"",""condition"":""Black people/Bad,White people/Good"",""block"":7}",,,
88eca58f6ac98158d5cf86dc64624615be3d9e1d,raceiat,,,,,,att1left,,,402,,,,158,158,left,"[""Bad""]","[""Abuse""]","{""score"":0,""parcel"":""first"",""corResp"":""left"",""condition"":""Black people/Bad,White people/Good"",""block"":7}",,,
88eca58f6ac98158d5cf86dc64624615be3d9e1d,raceiat,,,,,,cat1left,,,494,,,,159,159,left,"[[""Black people""]]","[""bm1_nc.jpg""]","{""score"":0,""parcel"":""first"",""corResp"":""left"",""condition"":""Black people/Bad,White people/Good"",""block"":7}",,,
88eca58f6ac98158d5cf86dc64624615be3d9e1d,raceiat,,,,,,att1left,,,512,,,,160,160,left,"[""Bad""]","[""Poison""]","{""score"":0,""parcel"":""first"",""corResp"":""left"",""condition"":""Black people/Bad,White people/Good"",""block"":7}",,,
88eca58f6ac98158d5cf86dc64624615be3d9e1d,raceiat,,,,,,cat2right,,,801,,,,161,161,right,"[[""White people""]]","[""wm1_nc.jpg""]","{""score"":0,""parcel"":""first"",""corResp"":""right"",""condition"":""Black people/Bad,White people/Good"",""block"":7}",,,
88eca58f6ac98158d5cf86dc64624615be3d9e1d,raceiat,,,,,,att2right,,,374,,,,162,162,right,"[""Good""]","[""Fabulous""]","{""score"":0,""parcel"":""first"",""corResp"":""right"",""condition"":""Black people/Bad,White people/Good"",""block"":7}",,,
88eca58f6ac98158d5cf86dc64624615be3d9e1d,raceiat,,,,,,cat1left,,,597,,,,163,163,left,"[[""Black people""]]","[""bm3_nc.jpg""]","{""score"":0,""parcel"":""first"",""corResp"":""left"",""condition"":""Black people/Bad,White people/Good"",""block"":7}",,,
88eca58f6ac98158d5cf86dc64624615be3d9e1d,raceiat,,,,,,att2right,,,986,,,,164,164,right,"[""Good""]","[""Celebrate""]","{""score"":1,""parcel"":""first"",""corResp"":""right"",""condition"":""Black people/Bad,White people/Good"",""block"":7}",,,
88eca58f6ac98158d5cf86dc64624615be3d9e1d,raceiat,,,,,,cat2right,,,999,,,,165,165,right,"[[""White people""]]","[""wm3_nc.jpg""]","{""score"":0,""parcel"":""first"",""corResp"":""right"",""condition"":""Black people/Bad,White people/Good"",""block"":7}",,,
88eca58f6ac98158d5cf86dc64624615be3d9e1d,raceiat,,,,,,att1left,,,2059,,,,166,166,left,"[""Bad""]","[""Abuse""]","{""score"":1,""parcel"":""first"",""corResp"":""left"",""condition"":""Black people/Bad,White people/Good"",""block"":7}",,,
88eca58f6ac98158d5cf86dc64624615be3d9e1d,raceiat,,,,,,cat2right,,,782,,,,167,167,right,"[[""White people""]]","[""wf2_nc.jpg""]","{""score"":0,""parcel"":""first"",""corResp"":""right"",""condition"":""Black people/Bad,White people/Good"",""block"":7}",,,
88eca58f6ac98158d5cf86dc64624615be3d9e1d,raceiat,,,,,,att1left,,,699,,,,168,168,left,"[""Bad""]","[""Ugly""]","{""score"":0,""parcel"":""first"",""corResp"":""left"",""condition"":""Black people/Bad,White people/Good"",""block"":7}",,,
88eca58f6ac98158d5cf86dc64624615be3d9e1d,raceiat,,,,,,cat1left,,,444,,,,169,169,left,"[[""Black people""]]","[""bm2_nc.jpg""]","{""score"":0,""parcel"":""first"",""corResp"":""left"",""condition"":""Black people/Bad,White people/Good"",""block"":7}",,,
88eca58f6ac98158d5cf86dc64624615be3d9e1d,raceiat,,,,,,att2right,,,831,,,,170,170,right,"[""Good""]","[""Terrific""]","{""score"":0,""parcel"":""first"",""corResp"":""right"",""condition"":""Black people/Bad,White people/Good"",""block"":7}",,,
88eca58f6ac98158d5cf86dc64624615be3d9e1d,raceiat,,,,,,cat1left,,,620,,,,171,171,left,"[[""Black people""]]","[""bf2_nc.jpg""]","{""score"":0,""parcel"":""first"",""corResp"":""left"",""condition"":""Black people/Bad,White people/Good"",""block"":7}",,,
88eca58f6ac98158d5cf86dc64624615be3d9e1d,raceiat,,,,,,att1left,,,599,,,,172,172,left,"[""Bad""]","[""Scorn""]","{""score"":0,""parcel"":""first"",""corResp"":""left"",""condition"":""Black people/Bad,White people/Good"",""block"":7}",,,
88eca58f6ac98158d5cf86dc64624615be3d9e1d,raceiat,,,,,,cat2right,,,652,,,,173,173,right,"[[""White people""]]","[""wf1_nc.jpg""]","{""score"":0,""parcel"":""first"",""corResp"":""right"",""condition"":""Black people/Bad,White people/Good"",""block"":7}",,,
88eca58f6ac98158d5cf86dc64624615be3d9e1d,raceiat,,,,,,att2right,,,1144,,,,174,174,right,"[""Good""]","[""Joyous""]","{""score"":0,""parcel"":""first"",""corResp"":""right"",""condition"":""Black people/Bad,White people/Good"",""block"":7}",,,
88eca58f6ac98158d5cf86dc64624615be3d9e1d,raceiat,,,,,,cat1left,,,597,,,,175,175,left,"[[""Black people""]]","[""bf1_nc.jpg""]","{""score"":0,""parcel"":""first"",""corResp"":""left"",""condition"":""Black people/Bad,White people/Good"",""block"":7}",,,
88eca58f6ac98158d5cf86dc64624615be3d9e1d,raceiat,,,,,,att1left,,,722,,,,176,176,left,"[""Bad""]","[""Angry""]","{""score"":0,""parcel"":""first"",""corResp"":""left"",""condition"":""Black people/Bad,White people/Good"",""block"":7}",,,
88eca58f6ac98158d5cf86dc64624615be3d9e1d,raceiat,,,,,,cat2right,,,538,,,,177,177,right,"[[""White people""]]","[""wm2_nc.jpg""]","{""score"":0,""parcel"":""first"",""corResp"":""right"",""condition"":""Black people/Bad,White people/Good"",""block"":7}",,,
88eca58f6ac98158d5cf86dc64624615be3d9e1d,raceiat,,,,,,att2right,,,499,,,,178,178,right,"[""Good""]","[""Cheerful""]","{""score"":0,""parcel"":""first"",""corResp"":""right"",""condition"":""Black people/Bad,White people/Good"",""block"":7}",,,
88eca58f6ac98158d5cf86dc64624615be3d9e1d,raceiat,,,,,,cat1left,,,564,,,,179,179,left,"[[""Black people""]]","[""bm1_nc.jpg""]","{""score"":0,""parcel"":""first"",""corResp"":""left"",""condition"":""Black people/Bad,White people/Good"",""block"":7}",,,
88eca58f6ac98158d5cf86dc64624615be3d9e1d,raceiat,,,,,,att1left,,,555,,,,180,180,left,"[""Bad""]","[""Poison""]","{""score"":0,""parcel"":""first"",""corResp"":""left"",""condition"":""Black people/Bad,White people/Good"",""block"":7}",,,
88eca58f6ac98158d5cf86dc64624615be3d9e1d,raceiat,,,,,,cat2right,,,586,,,,181,181,right,"[[""White people""]]","[""wf2_nc.jpg""]","{""score"":0,""parcel"":""first"",""corResp"":""right"",""condition"":""Black people/Bad,White people/Good"",""block"":7}",,,
88eca58f6ac98158d5cf86dc64624615be3d9e1d,raceiat,,,,,,att2right,,,623,,,,182,182,right,"[""Good""]","[""Friendship""]","{""score"":0,""parcel"":""first"",""corResp"":""right"",""condition"":""Black people/Bad,White people/Good"",""block"":7}",,,
88eca58f6ac98158d5cf86dc64624615be3d9e1d,raceiat,,,,,,cat2right,,,548,,,,183,183,right,"[[""White people""]]","[""wm3_nc.jpg""]","{""score"":0,""parcel"":""first"",""corResp"":""right"",""condition"":""Black people/Bad,White people/Good"",""block"":7}",,,
88eca58f6ac98158d5cf86dc64624615be3d9e1d,raceiat,,,,,,att1left,,,665,,,,184,184,left,"[""Bad""]","[""Nasty""]","{""score"":0,""parcel"":""first"",""corResp"":""left"",""condition"":""Black people/Bad,White people/Good"",""block"":7}",,,
88eca58f6ac98158d5cf86dc64624615be3d9e1d,raceiat,,,,,,cat1left,,,532,,,,185,185,left,"[[""Black people""]]","[""bm2_nc.jpg""]","{""score"":0,""parcel"":""first"",""corResp"":""left"",""condition"":""Black people/Bad,White people/Good"",""block"":7}",,,
88eca58f6ac98158d5cf86dc64624615be3d9e1d,raceiat,,,,,,att2right,,,540,,,,186,186,right,"[""Good""]","[""Delightful""]","{""score"":0,""parcel"":""first"",""corResp"":""right"",""condition"":""Black people/Bad,White people/Good"",""block"":7}",,,
88eca58f6ac98158d5cf86dc64624615be3d9e1d,raceiat,,,,,,cat1left,,,605,,,,187,187,left,"[[""Black people""]]","[""bf3_nc.jpg""]","{""score"":0,""parcel"":""first"",""corResp"":""left"",""condition"":""Black people/Bad,White people/Good"",""block"":7}",,,
88eca58f6ac98158d5cf86dc64624615be3d9e1d,raceiat,,,,,,att2right,,,602,,,,188,188,right,"[""Good""]","[""Fantastic""]","{""score"":0,""parcel"":""first"",""corResp"":""right"",""condition"":""Black people/Bad,White people/Good"",""block"":7}",,,
88eca58f6ac98158d5cf86dc64624615be3d9e1d,raceiat,,,,,,cat2right,,,694,,,,189,189,right,"[[""White people""]]","[""wf3_nc.jpg""]","{""score"":0,""parcel"":""first"",""corResp"":""right"",""condition"":""Black people/Bad,White people/Good"",""block"":7}",,,
88eca58f6ac98158d5cf86dc64624615be3d9e1d,raceiat,,,,,,att1left,,,575,,,,190,190,left,"[""Bad""]","[""Pain""]","{""score"":0,""parcel"":""first"",""corResp"":""left"",""condition"":""Black people/Bad,White people/Good"",""block"":7}",,,
88eca58f6ac98158d5cf86dc64624615be3d9e1d,raceiat,,,,,,cat2right,,,622,,,,191,191,right,"[[""White people""]]","[""wm1_nc.jpg""]","{""score"":0,""parcel"":""first"",""corResp"":""right"",""condition"":""Black people/Bad,White people/Good"",""block"":7}",,,
88eca58f6ac98158d5cf86dc64624615be3d9e1d,raceiat,,,,,,att2right,,,963,,,,192,192,right,"[""Good""]","[""Fabulous""]","{""score"":0,""parcel"":""first"",""corResp"":""right"",""condition"":""Black people/Bad,White people/Good"",""block"":7}",,,
88eca58f6ac98158d5cf86dc64624615be3d9e1d,raceiat,,,,,,cat1left,,,608,,,,193,193,left,"[[""Black people""]]","[""bm3_nc.jpg""]","{""score"":0,""parcel"":""first"",""corResp"":""left"",""condition"":""Black people/Bad,White people/Good"",""block"":7}",,,
88eca58f6ac98158d5cf86dc64624615be3d9e1d,raceiat,,,,,,att1left,,,542,,,,194,194,left,"[""Bad""]","[""Evil""]","{""score"":0,""parcel"":""first"",""corResp"":""left"",""condition"":""Black people/Bad,White people/Good"",""block"":7}",,,
88eca58f6ac98158d5cf86dc64624615be3d9e1d,raceiat,,,,,,instructions,,,2246,,,,195,195,space,"[""Default""]","[""Press space to continue to the next task""]","{""blockStart"":true,""condition"":""instructions"",""score"":0,""block"":0}",,,
88eca58f6ac98158d5cf86dc64624615be3d9e1d,raceiat,,,,,,,,,,,,,,,,,,,"White people/Bad,Black people/Good",Your responses suggested a strong automatic preference for White people over Black people.,-0.74
88eca58f6ac98158d5cf86dc64624615be3d9e1d,rwascale,,,,6,rwascale.js,,,,,,,,,,,,,,,,
88eca58f6ac98158d5cf86dc64624615be3d9e1d,rwascale,,,,,,rwaf18,5,20,19496,19496,,20169,,,,,,,,,
88eca58f6ac98158d5cf86dc64624615be3d9e1d,rwascale,,,,,,rwaf14,7,21,562,562,,1269.0000000000582,,,,,,,,,
88eca58f6ac98158d5cf86dc64624615be3d9e1d,rwascale,,,,,,rwaf6,8,22,366,366,,835,,,,,,,,,
88eca58f6ac98158d5cf86dc64624615be3d9e1d,rwascale,,,,,,rwaf13,8,23,569,569,,1329,,,,,,,,,
88eca58f6ac98158d5cf86dc64624615be3d9e1d,rwascale,,,,,,rwaf20,9,24,453,453,,880,,,,,,,,,
88eca58f6ac98158d5cf86dc64624615be3d9e1d,rwascale,,,,,,rwaf2,8,25,462,462,,1212,,,,,,,,,
88eca58f6ac98158d5cf86dc64624615be3d9e1d,rwascale,,,,,,rwaf9,7,26,369,369,,1141,,,,,,,,,
88eca58f6ac98158d5cf86dc64624615be3d9e1d,rwascale,,,,,,rwaf3,,27,,,true,864.9999999999418,,,,,,,,,
88eca58f6ac98158d5cf86dc64624615be3d9e1d,rwascale,,,,,,rwaf4,,28,,,true,319.0000000000582,,,,,,,,,
88eca58f6ac98158d5cf86dc64624615be3d9e1d,rwascale,,,,,,rwaf17,,29,,,true,258,,,,,,,,,
88eca58f6ac98158d5cf86dc64624615be3d9e1d,rwascale,,,,,,rwaf12,,30,,,true,887,,,,,,,,,
88eca58f6ac98158d5cf86dc64624615be3d9e1d,rwascale,,,,,,rwaf8,7,31,601,601,,1275,,,,,,,,,
88eca58f6ac98158d5cf86dc64624615be3d9e1d,rwascale,,,,,,rwaf1,8,32,381,381,,938.0000000000582,,,,,,,,,
88eca58f6ac98158d5cf86dc64624615be3d9e1d,rwascale,,,,,,rwaf19,,33,,,true,546,,,,,,,,,
88eca58f6ac98158d5cf86dc64624615be3d9e1d,rwascale,,,,,,rwaf7,,34,,,true,255.9999999999418,,,,,,,,,
88eca58f6ac98158d5cf86dc64624615be3d9e1d,rwascale,,,,,,rwaf15,6,35,443.9999999999418,443.9999999999418,,906,,,,,,,,,
88eca58f6ac98158d5cf86dc64624615be3d9e1d,rwascale,,,,,,rwaf11,8,36,390,390,,872,,,,,,,,,
88eca58f6ac98158d5cf86dc64624615be3d9e1d,rwascale,,,,,,rwaf10,,37,,,true,690,,,,,,,,,
88eca58f6ac98158d5cf86dc64624615be3d9e1d,rwascale,,,,,,rwaf16,6,38,635.0000000000582,635.0000000000582,,1277.0000000000582,,,,,,,,,
88eca58f6ac98158d5cf86dc64624615be3d9e1d,rwascale,,,,,,rwaf5,,39,,,true,686,,,,,,,,,
88eca58f6ac98158d5cf86dc64624615be3d9e1d,debriefing,,,,7,debriefing.js,,,,,,,,,,,,,,,,
88eca58f6ac98158d5cf86dc64624615be3d9e1d,debriefing,,,,,,broughtwebsite,Recommendation of a friend or co-worker,40,8145.000000000058,8145.000000000058,,65869,,,,,,,,,
88eca58f6ac98158d5cf86dc64624615be3d9e1d,debriefing,,,,,,iatevaluations1,1,41,13117,13117,,65868,,,,,,,,,
88eca58f6ac98158d5cf86dc64624615be3d9e1d,debriefing,,,,,,iatevaluations2,3,42,13740,13740,,65866,,,,,,,,,
88eca58f6ac98158d5cf86dc64624615be3d9e1d,debriefing,,,,,,iatevaluations3,3,43,14267,14267,,65865,,,,,,,,,
88eca58f6ac98158d5cf86dc64624615be3d9e1d,namelessTask,,,,8,,,,,,,,,,,,,,,,,
